仪器类型:LRS-II型 激光喇曼/荧光光谱仪
样品名称:
操作人:
备注:
保存时间:2025年05月21日  02:18:53 PM
采集模式:0    //0,3--能量   1--透过率   2--吸光度
数据模式:0    //0--波长扫描    1--定点扫描
起始波长(nm):515.0
终止波长(nm):565.0
扫描间隔(nm):0.1
最大值:262573.7
最小值:100.0
增益:14
负高压:8
采集次数:1000
数据段数:1
段1:    起点(nm):515.0     终点(nm):565.0


 波长(nm)    数值
  515.0      84.8
  515.1      78.8
  515.2      91.5
  515.3      69.0
  515.4      82.0
  515.5      83.1
  515.6      77.5
  515.7      92.0
  515.8      84.0
  515.9      85.7
  516.0      93.0
  516.1      97.1
  516.2      98.0
  516.3      102.3
  516.4      88.4
  516.5      98.0
  516.6      80.5
  516.7      89.6
  516.8      86.6
  516.9      80.2
  517.0      82.0
  517.1      72.0
  517.2      75.5
  517.3      87.5
  517.4      84.7
  517.5      94.2
  517.6      86.2
  517.7      93.5
  517.8      76.0
  517.9      79.9
  518.0      74.5
  518.1      66.7
  518.2      85.2
  518.3      81.5
  518.4      87.4
  518.5      85.0
  518.6      77.0
  518.7      89.0
  518.8      79.0
  518.9      82.7
  519.0      85.0
  519.1      84.0
  519.2      88.5
  519.3      88.1
  519.4      88.5
  519.5      81.0
  519.6      85.5
  519.7      85.5
  519.8      78.3
  519.9      101.5
  520.0      70.5
  520.1      91.7
  520.2      83.6
  520.3      90.0
  520.4      88.7
  520.5      89.5
  520.6      77.5
  520.7      86.0
  520.8      88.8
  520.9      107.1
  521.0      113.7
  521.1      103.0
  521.2      105.0
  521.3      96.5
  521.4      107.0
  521.5      96.6
  521.6      89.8
  521.7      83.4
  521.8      87.5
  521.9      89.0
  522.0      87.5
  522.1      95.9
  522.2      89.0
  522.3      95.0
  522.4      94.0
  522.5      93.8
  522.6      98.5
  522.7      97.7
  522.8      97.0
  522.9      94.0
  523.0      93.0
  523.1      102.5
  523.2      103.3
  523.3      105.5
  523.4      106.9
  523.5      105.0
  523.6      105.5
  523.7      100.0
  523.8      105.5
  523.9      100.9
  524.0      102.8
  524.1      113.8
  524.2      125.3
  524.3      128.6
  524.4      131.1
  524.5      147.1
  524.6      186.3
  524.7      245.9
  524.8      366.3
  524.9      524.2
  525.0      556.5
  525.1      590.7
  525.2      467.2
  525.3      362.4
  525.4      276.6
  525.5      230.1
  525.6      209.5
  525.7      224.0
  525.8      231.4
  525.9      224.5
  526.0      223.1
  526.1      212.5
  526.2      181.9
  526.3      167.5
  526.4      153.5
  526.5      146.5
  526.6      151.0
  526.7      153.5
  526.8      152.5
  526.9      171.0
  527.0      201.6
  527.1      214.0
  527.2      230.6
  527.3      288.0
  527.4      412.1
  527.5      586.8
  527.6      760.0
  527.7      728.0
  527.8      694.6
  527.9      513.0
  528.0      350.2
  528.1      260.2
  528.2      217.1
  528.3      193.4
  528.4      194.0
  528.5      163.5
  528.6      177.8
  528.7      157.5
  528.8      177.5
  528.9      150.5
  529.0      174.5
  529.1      142.5
  529.2      172.4
  529.3      155.0
  529.4      186.0
  529.5      172.2
  529.6      187.3
  529.7      193.9
  529.8      200.0
  529.9      208.5
  530.0      192.0
  530.1      208.5
  530.2      192.4
  530.3      214.2
  530.4      230.4
  530.5      228.6
  530.6      244.0
  530.7      273.6
  530.8      292.0
  530.9      304.5
  531.0      316.6
  531.1      337.4
  531.2      353.3
  531.3      381.3
  531.4      424.5
  531.5      466.9
  531.6      482.3
  531.7      513.2
  531.8      572.5
  531.9      640.9
  532.0      740.1
  532.1      844.1
  532.2      952.1
  532.3      1052.4
  532.4      1196.1
  532.5      1326.0
  532.6      1500.4
  532.7      1752.9
  532.8      2029.9
  532.9      2293.0
  533.0      2660.7
  533.1      3037.1
  533.2      3523.5
  533.3      4017.2
  533.4      5066.0
  533.5      7201.6
  533.6      26833.8
  533.7      96366.9
  533.8      199694.1
  533.9      238753.5
  534.0      262573.7
  534.1      163186.4
  534.2      56370.4
  534.3      5749.7
  534.4      5940.5
  534.5      3351.2
  534.6      2929.4
  534.7      2547.5
  534.8      2185.0
  534.9      1861.6
  535.0      1551.1
  535.1      1388.3
  535.2      1264.0
  535.3      1108.3
  535.4      939.4
  535.5      827.3
  535.6      747.6
  535.7      666.2
  535.8      588.9
  535.9      516.1
  536.0      468.5
  536.1      441.1
  536.2      414.6
  536.3      389.3
  536.4      360.2
  536.5      333.3
  536.6      310.9
  536.7      296.0
  536.8      292.0
  536.9      278.5
  537.0      279.6
  537.1      241.9
  537.2      258.0
  537.3      210.5
  537.4      234.6
  537.5      209.5
  537.6      208.9
  537.7      198.5
  537.8      201.0
  537.9      196.7
  538.0      184.8
  538.1      195.5
  538.2      187.2
  538.3      215.1
  538.4      202.0
  538.5      233.5
  538.6      193.5
  538.7      219.5
  538.8      199.5
  538.9      218.7
  539.0      215.5
  539.1      220.0
  539.2      217.2
  539.3      220.5
  539.4      237.0
  539.5      228.0
  539.6      257.0
  539.7      249.2
  539.8      305.4
  539.9      373.4
  540.0      459.2
  540.1      599.7
  540.2      893.6
  540.3      1311.5
  540.4      1634.2
  540.5      1634.2
  540.6      1283.6
  540.7      859.3
  540.8      566.0
  540.9      448.7
  541.0      385.5
  541.1      333.0
  541.2      293.5
  541.3      268.1
  541.4      258.5
  541.5      247.9
  541.6      240.0
  541.7      239.0
  541.8      226.2
  541.9      238.0
  542.0      227.1
  542.1      243.0
  542.2      229.0
  542.3      260.5
  542.4      259.3
  542.5      304.8
  542.6      331.2
  542.7      358.9
  542.8      475.3
  542.9      744.4
  543.0      1174.8
  543.1      1558.0
  543.2      1396.5
  543.3      1246.2
  543.4      793.4
  543.5      513.6
  543.6      364.9
  543.7      311.4
  543.8      258.2
  543.9      222.2
  544.0      214.5
  544.1      195.0
  544.2      200.8
  544.3      184.5
  544.4      178.3
  544.5      175.5
  544.6      154.0
  544.7      168.0
  544.8      148.0
  544.9      162.5
  545.0      143.0
  545.1      146.5
  545.2      144.6
  545.3      146.5
  545.4      149.9
  545.5      136.5
  545.6      136.0
  545.7      135.8
  545.8      149.4
  545.9      138.5
  546.0      141.7
  546.1      135.6
  546.2      134.5
  546.3      137.0
  546.4      121.0
  546.5      146.5
  546.6      115.0
  546.7      139.5
  546.8      135.3
  546.9      135.5
  547.0      142.3
  547.1      139.5
  547.2      140.7
  547.3      165.9
  547.4      180.4
  547.5      188.8
  547.6      175.0
  547.7      164.5
  547.8      142.0
  547.9      148.0
  548.0      131.0
  548.1      122.2
  548.2      112.6
  548.3      105.0
  548.4      112.0
  548.5      98.5
  548.6      117.5
  548.7      109.9
  548.8      121.9
  548.9      114.5
  549.0      119.0
  549.1      122.0
  549.2      112.5
  549.3      118.0
  549.4      99.9
  549.5      97.0
  549.6      90.7
  549.7      103.3
  549.8      100.3
  549.9      102.0
  550.0      95.0
  550.1      99.5
  550.2      107.0
  550.3      111.5
  550.4      99.0
  550.5      119.5
  550.6      111.7
  550.7      114.6
  550.8      101.7
  550.9      92.5
  551.0      90.7
  551.1      97.0
  551.2      82.5
  551.3      100.0
  551.4      86.5
  551.5      90.3
  551.6      97.5
  551.7      90.5
  551.8      101.0
  551.9      96.5
  552.0      95.0
  552.1      98.9
  552.2      109.5
  552.3      92.0
  552.4      103.6
  552.5      101.5
  552.6      99.9
  552.7      104.5
  552.8      101.3
  552.9      91.6
  553.0      90.0
  553.1      95.2
  553.2      87.5
  553.3      104.5
  553.4      81.0
  553.5      99.5
  553.6      91.7
  553.7      102.0
  553.8      108.2
  553.9      99.5
  554.0      94.3
  554.1      77.9
  554.2      100.5
  554.3      92.6
  554.4      101.3
  554.5      96.6
  554.6      92.6
  554.7      100.5
  554.8      114.4
  554.9      113.2
  555.0      117.5
  555.1      109.1
  555.2      119.0
  555.3      127.5
  555.4      140.8
  555.5      163.8
  555.6      190.9
  555.7      238.7
  555.8      288.3
  555.9      317.1
  556.0      340.3
  556.1      333.5
  556.2      349.0
  556.3      312.5
  556.4      318.0
  556.5      302.7
  556.6      312.5
  556.7      320.0
  556.8      322.9
  556.9      337.8
  557.0      336.6
  557.1      320.1
  557.2      307.1
  557.3      286.7
  557.4      254.2
  557.5      202.3
  557.6      160.0
  557.7      147.0
  557.8      127.5
  557.9      120.5
  558.0      117.5
  558.1      97.0
  558.2      96.3
  558.3      87.5
  558.4      84.0
  558.5      81.5
  558.6      89.5
  558.7      73.0
  558.8      85.0
  558.9      64.0
  559.0      86.5
  559.1      76.7
  559.2      84.0
  559.3      78.8
  559.4      82.0
  559.5      69.5
  559.6      77.0
  559.7      78.9
  559.8      70.5
  559.9      89.5
  560.0      77.2
  560.1      85.2
  560.2      81.5
  560.3      82.3
  560.4      80.5
  560.5      80.7
  560.6      83.5
  560.7      86.0
  560.8      85.8
  560.9      90.9
  561.0      86.8
  561.1      75.0
  561.2      76.0
  561.3      77.8
  561.4      79.0
  561.5      85.1
  561.6      75.5
  561.7      90.5
  561.8      75.5
  561.9      77.5
  562.0      77.5
  562.1      75.5
  562.2      75.5
  562.3      78.9
  562.4      74.0
  562.5      77.5
  562.6      73.6
  562.7      69.8
  562.8      69.9
  562.9      72.7
  563.0      78.8
  563.1      72.0
  563.2      77.4
  563.3      70.2
  563.4      75.5
  563.5      74.7
  563.6      72.5
  563.7      85.5
  563.8      83.2
  563.9      81.8
  564.0      80.0
  564.1      66.0
  564.2      78.0
  564.3      67.0
  564.4      70.5
  564.5      72.4
  564.6      69.5
  564.7      76.9
  564.8      76.0
  564.9      76.4
  565.0      76.5
